File: FeS2.txt
/////////////////////////////////////////////////////////////////////////////////
/// Profile Data Ascii Dump (XRD)                                             ///
/////////////////////////////////////////////////////////////////////////////////

  Group     : Standard
  Data      : 154_FeS
  File Name : 154_FeS.RAW

# Profile Datafile
          comment             = 154_FeS
          date & time         = 10-11-22 12:09:12

# Measurement Condition
    X-ray tube
          target              = Co
          voltage             = 40.0 (kV)
          current             = 30.0 (mA)
    Slits
          divergence slit     = 1.00000 (deg)
          scatter slit        = 1.00000 (deg)
          receiving slit      = 0.30000 (mm)
    Scanning
          drive axis          = Theta-2Theta
          scan range          =    5.000 -   80.000
          scan mode           = Continuous Scan
          scan speed          =   2.0000 (deg/min)
          sampling pitch      =   0.0200 (deg)
          preset time         =   0.60 (sec)

# Data      [ Total No. = 3751 ]
  <2Theta>   <   I   >
     5.0000       160
     5.0600       134
     5.1200       100
     5.1800       130
     5.2400       124
     5.3000        98
     5.3600        90
     5.4200       112
     5.4800       114
     5.5400       102
     5.6000       106
     5.6600       112
     5.7200       116
     5.7800        94
     5.8400       116
     5.9000       116
     5.9600        98
     6.0200       104
     6.0800        92
     6.1400       104
     6.2000        98
     6.2600       110
     6.3200        92
     6.3800        98
     6.4400       122
     6.5000        84
     6.5600        96
     6.6200        94
     6.6800       108
     6.7400       104
     6.8000        90
     6.8600        76
     6.9200        90
     6.9800        96
     7.0400       100
     7.1000        90
     7.1600       106
     7.2200       100
     7.2800        92
     7.3400        96
     7.4000        86
     7.4600        80
     7.5200        94
     7.5800        94
     7.6400        86
     7.7000        88
     7.7600        84
     7.8200        80
     7.8800        86
     7.9400        96
     8.0000        92
     8.0600        84
     8.1200        84
     8.1800        64
     8.2400        86
     8.3000        86
     8.3600        88
     8.4200        62
     8.4800        84
     8.5400        98
     8.6000        84
     8.6600        82
     8.7200        88
     8.7800        82
     8.8400        90
     8.9000        86
     8.9600        90
     9.0200        72
     9.0800        76
     9.1400        82
     9.2000        86
     9.2600        92
     9.3200        76
     9.3800        86
     9.4400        78
     9.5000        92
     9.5600        74
     9.6200        78
     9.6800        92
     9.7400        78
     9.8000        74
     9.8600        72
     9.9200        88
     9.9800        70
    10.0400        78
    10.1000        84
    10.1600        76
    10.2200        68
    10.2800        84
    10.3400        82
    10.4000        68
    10.4600        68
    10.5200        78
    10.5800        74
    10.6400        86
    10.7000        82
    10.7600        78
    10.8200        80
    10.8800        90
    10.9400        58
    11.0000        86
    11.0600        72
    11.1200        88
    11.1800        86
    11.2400        70
    11.3000        68
    11.3600        74
    11.4200        84
    11.4800        90
    11.5400        86
    11.6000        74
    11.6600        84
    11.7200        78
    11.7800        82
    11.8400        68
    11.9000        78
    11.9600        90
    12.0200        88
    12.0800        78
    12.1400        78
    12.2000        88
    12.2600        94
    12.3200        92
    12.3800        88
    12.4400        94
    12.5000        80
    12.5600        82
    12.6200        80
    12.6800        72
    12.7400       132
    12.8000        90
    12.8600       100
    12.9200        90
    12.9800        80
    13.0400        76
    13.1000        78
    13.1600        80
    13.2200        78
    13.2800        96
    13.3400        78
    13.4000        76
    13.4600        76
    13.5200        74
    13.5800        76
    13.6400        78
    13.7000        94
    13.7600        80
    13.8200        80
    13.8800        94
    13.9400        80
    14.0000       102
    14.0600        86
    14.1200        98
    14.1800        88
    14.2400        98
    14.3000       102
    14.3600       106
    14.4200        74
    14.4800        94
    14.5400       102
    14.6000        96
    14.6600        90
    14.7200        94
    14.7800        82
    14.8400        82
    14.9000        86
    14.9600        84
    15.0200        92
    15.0800        94
    15.1400        90
    15.2000        90
    15.2600        84
    15.3200        86
    15.3800       108
    15.4400        74
    15.5000        84
    15.5600       104
    15.6200        98
    15.6800        82
    15.7400        90
    15.8000        88
    15.8600        94
    15.9200        78
    15.9800        84
    16.0400        98
    16.1000        92
    16.1600       104
    16.2200        74
    16.2800       110
    16.3400       108
    16.4000        78
    16.4600        88
    16.5200        92
    16.5800        98
    16.6400        84
    16.7000        86
    16.7600       102
    16.8200       108
    16.8800        92
    16.9400       110
    17.0000        80
    17.0600        96
    17.1200        90
    17.1800        92
    17.2400        86
    17.3000        88
    17.3600        90
    17.4200        94
    17.4800       102
    17.5400        98
    17.6000        92
    17.6600       104
    17.7200        86
    17.7800        98
    17.8400        90
    17.9000        90
    17.9600        90
    18.0200        84
    18.0800        98
    18.1400        76
    18.2000        90
    18.2600        96
    18.3200        82
    18.3800       104
    18.4400        96
    18.5000       102
    18.5600        94
    18.6200        76
    18.6800       100
    18.7400        86
    18.8000       106
    18.8600       108
    18.9200        76
    18.9800        94
    19.0400       100
    19.1000        80
    19.1600        84
    19.2200        98
    19.2800        86
    19.3400        86
    19.4000        80
    19.4600        94
    19.5200       104
    19.5800        74
    19.6400       102
    19.7000        98
    19.7600        92
    19.8200        94
    19.8800       110
    19.9400        96
    20.0000        78
    20.0600        88
    20.1200       120
    20.1800        96
    20.2400       104
    20.3000        78
    20.3600       100
    20.4200        98
    20.4800       100
    20.5400        68
    20.6000       100
    20.6600        80
    20.7200       104
    20.7800        84
    20.8400       104
    20.9000        88
    20.9600        92
    21.0200        94
    21.0800        90
    21.1400        88
    21.2000       102
    21.2600        88
    21.3200        92
    21.3800        82
    21.4400        98
    21.5000        86
    21.5600       104
    21.6200        96
    21.6800        80
    21.7400        94
    21.8000        90
    21.8600        76
    21.9200        82
    21.9800        90
    22.0400        88
    22.1000        82
    22.1600        94
    22.2200       102
    22.2800        74
    22.3400        82
    22.4000        88
    22.4600        82
    22.5200       104
    22.5800        84
    22.6400        84
    22.7000        94
    22.7600        80
    22.8200        94
    22.8800       104
    22.9400        98
    23.0000        84
    23.0600        82
    23.1200       108
    23.1800       102
    23.2400        62
    23.3000        92
    23.3600        88
    23.4200        82
    23.4800        92
    23.5400        86
    23.6000        86
    23.6600        76
    23.7200        86
    23.7800        88
    23.8400        84
    23.9000        80
    23.9600       106
    24.0200        80
    24.0800        76
    24.1400        78
    24.2000        84
    24.2600        86
    24.3200        74
    24.3800        84
    24.4400        90
    24.5000        94
    24.5600        84
    24.6200        68
    24.6800        92
    24.7400        78
    24.8000        76
    24.8600        80
    24.9200       100
    24.9800        66
    25.0400        98
    25.1000        78
    25.1600        98
    25.2200        70
    25.2800        68
    25.3400        84
    25.4000        86
    25.4600        58
    25.5200        68
    25.5800        96
    25.6400        96
    25.7000        74
    25.7600        78
    25.8200        72
    25.8800        70
    25.9400        72
    26.0000        68
    26.0600        80
    26.1200        78
    26.1800        60
    26.2400        90
    26.3000        86
    26.3600        86
    26.4200        76
    26.4800        70
    26.5400        96
    26.6000        82
    26.6600        76
    26.7200        78
    26.7800        84
    26.8400        84
    26.9000        80
    26.9600        66
    27.0200        82
    27.0800        56
    27.1400        60
    27.2000        64
    27.2600        78
    27.3200        74
    27.3800        68
    27.4400        64
    27.5000        66
    27.5600        60
    27.6200        62
    27.6800        74
    27.7400        74
    27.8000        74
    27.8600        74
    27.9200        84
    27.9800        60
    28.0400        54
    28.1000        54
    28.1600        68
    28.2200        74
    28.2800        70
    28.3400        56
    28.4000        68
    28.4600        58
    28.5200        62
    28.5800        66
    28.6400        72
    28.7000        60
    28.7600        72
    28.8200        76
    28.8800        58
    28.9400        84
    29.0000        58
    29.0600        58
    29.1200        58
    29.1800        70
    29.2400        62
    29.3000        72
    29.3600        76
    29.4200        52
    29.4800        84
    29.5400        76
    29.6000        62
    29.6600        62
    29.7200        72
    29.7800        58
    29.8400        74
    29.9000        64
    29.9600        86
    30.0200        62
    30.0800        66
    30.1400        50
    30.2000        48
    30.2600        62
    30.3200        60
    30.3800        70
    30.4400        56
    30.5000        64
    30.5600        58
    30.6200        70
    30.6800        54
    30.7400        56
    30.8000        66
    30.8600        66
    30.9200        72
    30.9800        90
    31.0400       108
    31.1000        86
    31.1600        74
    31.2200        80
    31.2800        70
    31.3400        70
    31.4000        70
    31.4600        64
    31.5200        60
    31.5800        70
    31.6400        52
    31.7000        66
    31.7600        64
    31.8200        72
    31.8800        58
    31.9400        52
    32.0000        62
    32.0600        52
    32.1200        52
    32.1800        72
    32.2400        62
    32.3000        62
    32.3600        62
    32.4200        60
    32.4800        52
    32.5400        62
    32.6000        72
    32.6600        64
    32.7200        66
    32.7800        60
    32.8400        66
    32.9000        88
    32.9600        74
    33.0200        78
    33.0800        68
    33.1400        92
    33.2000       184
    33.2600       216
    33.3200       168
    33.3800       108
    33.4400        72
    33.5000        82
    33.5600        66
    33.6200        70
    33.6800        58
    33.7400        66
    33.8000        62
    33.8600        70
    33.9200        64
    33.9800        82
    34.0400        80
    34.1000        68
    34.1600        84
    34.2200        80
    34.2800        92
    34.3400        78
    34.4000        90
    34.4600        72
    34.5200        62
    34.5800        52
    34.6400        70
    34.7000        60
    34.7600        66
    34.8200        84
    34.8800        62
    34.9400        68
    35.0000        64
    35.0600        72
    35.1200        60
    35.1800        70
    35.2400        84
    35.3000        82
    35.3600        76
    35.4200        74
    35.4800        66
    35.5400        86
    35.6000        94
    35.6600        72
    35.7200        82
    35.7800        64
    35.8400        60
    35.9000        72
    35.9600        72
    36.0200        72
    36.0800        80
    36.1400        70
    36.2000        94
    36.2600        74
    36.3200        60
    36.3800        76
    36.4400        78
    36.5000        78
    36.5600        90
    36.6200        82
    36.6800        80
    36.7400        82
    36.8000        78
    36.8600        98
    36.9200        66
    36.9800        74
    37.0400        80
    37.1000        82
    37.1600        72
    37.2200        98
    37.2800        80
    37.3400        80
    37.4000        70
    37.4600        90
    37.5200        88
    37.5800        74
    37.6400        80
    37.7000        90
    37.7600        94
    37.8200        94
    37.8800        74
    37.9400        86
    38.0000       112
    38.0600        86
    38.1200        84
    38.1800        78
    38.2400        80
    38.3000       108
    38.3600       122
    38.4200       152
    38.4800       310
    38.5400       676
    38.6000       660
    38.6600       400
    38.7200       192
    38.7800       120
    38.8400       118
    38.9000        82
    38.9600        90
    39.0200        82
    39.0800        60
    39.1400        76
    39.2000       100
    39.2600        84
    39.3200        74
    39.3800        82
    39.4400        64
    39.5000        90
    39.5600        72
    39.6200        78
    39.6800        86
    39.7400        88
    39.8000        88
    39.8600        64
    39.9200        90
    39.9800        70
    40.0400        62
    40.1000        70
    40.1600        70
    40.2200        72
    40.2800        68
    40.3400        78
    40.4000        78
    40.4600        80
    40.5200        68
    40.5800        86
    40.6400        86
    40.7000        68
    40.7600        96
    40.8200        96
    40.8800        62
    40.9400        82
    41.0000        62
    41.0600        64
    41.1200        72
    41.1800        74
    41.2400        54
    41.3000        62
    41.3600        70
    41.4200        64
    41.4800        58
    41.5400        60
    41.6000        48
    41.6600        72
    41.7200        72
    41.7800        74
    41.8400        40
    41.9000        68
    41.9600        64
    42.0200        72
    42.0800        70
    42.1400        50
    42.2000        72
    42.2600        66
    42.3200        70
    42.3800        84
    42.4400        66
    42.5000        66
    42.5600        82
    42.6200        66
    42.6800        52
    42.7400        66
    42.8000        56
    42.8600        70
    42.9200        82
    42.9800        78
    43.0400        66
    43.1000        72
    43.1600       100
    43.2200       176
    43.2800       326
    43.3400       642
    43.4000       374
    43.4600       260
    43.5200       106
    43.5800        68
    43.6400        68
    43.7000        60
    43.7600        60
    43.8200        56
    43.8800        54
    43.9400        64
    44.0000        54
    44.0600        58
    44.1200        70
    44.1800        62
    44.2400        62
    44.3000        44
    44.3600        64
    44.4200        68
    44.4800        62
    44.5400        78
    44.6000        58
    44.6600        54
    44.7200        66
    44.7800        78
    44.8400        66
    44.9000        54
    44.9600        58
    45.0200        62
    45.0800        76
    45.1400        80
    45.2000        58
    45.2600        74
    45.3200        76
    45.3800        80
    45.4400        48
    45.5000        56
    45.5600        56
    45.6200        56
    45.6800        60
    45.7400        50
    45.8000        60
    45.8600        62
    45.9200        70
    45.9800        62
    46.0400        62
    46.1000        76
    46.1600        66
    46.2200        56
    46.2800        54
    46.3400        68
    46.4000        60
    46.4600        52
    46.5200        60
    46.5800        62
    46.6400        70
    46.7000        56
    46.7600        64
    46.8200        74
    46.8800        72
    46.9400        62
    47.0000        66
    47.0600        56
    47.1200        74
    47.1800        54
    47.2400        66
    47.3000        52
    47.3600        68
    47.4200        70
    47.4800        84
    47.5400        90
    47.6000       144
    47.6600       278
    47.7200       484
    47.7800       280
    47.8400       224
    47.9000       132
    47.9600        82
    48.0200        80
    48.0800        62
    48.1400        62
    48.2000        66
    48.2600        60
    48.3200        68
    48.3800        54
    48.4400        54
    48.5000        66
    48.5600        70
    48.6200        66
    48.6800        58
    48.7400        60
    48.8000        62
    48.8600        58
    48.9200        66
    48.9800        50
    49.0400        48
    49.1000        62
    49.1600        68
    49.2200        46
    49.2800        66
    49.3400        48
    49.4000        48
    49.4600        58
    49.5200        54
    49.5800        54
    49.6400        64
    49.7000        56
    49.7600        58
    49.8200        56
    49.8800        70
    49.9400        64
    50.0000        64
    50.0600        58
    50.1200        54
    50.1800        56
    50.2400        60
    50.3000        66
    50.3600        44
    50.4200        66
    50.4800        64
    50.5400        52
    50.6000        38
    50.6600        62
    50.7200        56
    50.7800        64
    50.8400        58
    50.9000        58
    50.9600        52
    51.0200        50
    51.0800        54
    51.1400        50
    51.2000        54
    51.2600        44
    51.3200        54
    51.3800        48
    51.4400        54
    51.5000        68
    51.5600        54
    51.6200        66
    51.6800        64
    51.7400        56
    51.8000        42
    51.8600        70
    51.9200        64
    51.9800        58
    52.0400        54
    52.1000        48
    52.1600        42
    52.2200        58
    52.2800        56
    52.3400        56
    52.4000        62
    52.4600        42
    52.5200        56
    52.5800        50
    52.6400        56
    52.7000        46
    52.7600        58
    52.8200        58
    52.8800        72
    52.9400        60
    53.0000        52
    53.0600        50
    53.1200        34
    53.1800        48
    53.2400        56
    53.3000        52
    53.3600        58
    53.4200        54
    53.4800        54
    53.5400        46
    53.6000        46
    53.6600        58
    53.7200        52
    53.7800        40
    53.8400        50
    53.9000        60
    53.9600        46
    54.0200        54
    54.0800        56
    54.1400        52
    54.2000        68
    54.2600        50
    54.3200        68
    54.3800        60
    54.4400        46
    54.5000        58
    54.5600        48
    54.6200        48
    54.6800        56
    54.7400        52
    54.8000        52
    54.8600        48
    54.9200        54
    54.9800        60
    55.0400        64
    55.1000        46
    55.1600        58
    55.2200        38
    55.2800        48
    55.3400        52
    55.4000        44
    55.4600        70
    55.5200        60
    55.5800       100
    55.6400       252
    55.7000       302
    55.7600       184
    55.8200       194
    55.8800        90
    55.9400        64
    56.0000        64
    56.0600        48
    56.1200        60
    56.1800        56
    56.2400        58
    56.3000        44
    56.3600        56
    56.4200        44
    56.4800        52
    56.5400        64
    56.6000        48
    56.6600        52
    56.7200        40
    56.7800        52
    56.8400        58
    56.9000        50
    56.9600        50
    57.0200        42
    57.0800        52
    57.1400        56
    57.2000        52
    57.2600        50
    57.3200        48
    57.3800        60
    57.4400        42
    57.5000        40
    57.5600        48
    57.6200        62
    57.6800        46
    57.7400        48
    57.8000        56
    57.8600        58
    57.9200        48
    57.9800        58
    58.0400        42
    58.1000        50
    58.1600        52
    58.2200        38
    58.2800        58
    58.3400        52
    58.4000        52
    58.4600        62
    58.5200        46
    58.5800        58
    58.6400        46
    58.7000        48
    58.7600        46
    58.8200        58
    58.8800        38
    58.9400        56
    59.0000        46
    59.0600        52
    59.1200        44
    59.1800        52
    59.2400        50
    59.3000        52
    59.3600        54
    59.4200        50
    59.4800        54
    59.5400        68
    59.6000        42
    59.6600        64
    59.7200        62
    59.7800        44
    59.8400        46
    59.9000        50
    59.9600        40
    60.0200        56
    60.0800        46
    60.1400        38
    60.2000        52
    60.2600        48
    60.3200        44
    60.3800        44
    60.4400        62
    60.5000        62
    60.5600        48
    60.6200        42
    60.6800        36
    60.7400        62
    60.8000        60
    60.8600        48
    60.9200        56
    60.9800        48
    61.0400        52
    61.1000        44
    61.1600        46
    61.2200        42
    61.2800        36
    61.3400        48
    61.4000        44
    61.4600        52
    61.5200        52
    61.5800        40
    61.6400        48
    61.7000        56
    61.7600        56
    61.8200        40
    61.8800        36
    61.9400        54
    62.0000        38
    62.0600        48
    62.1200        54
    62.1800        38
    62.2400        52
    62.3000        44
    62.3600        56
    62.4200        34
    62.4800        44
    62.5400        62
    62.6000        50
    62.6600        50
    62.7200        46
    62.7800        48
    62.8400        60
    62.9000        52
    62.9600        50
    63.0200        46
    63.0800        44
    63.1400        58
    63.2000        56
    63.2600        42
    63.3200        50
    63.3800        36
    63.4400        54
    63.5000        48
    63.5600        38
    63.6200        54
    63.6800        58
    63.7400        48
    63.8000        38
    63.8600        48
    63.9200        52
    63.9800        54
    64.0400        40
    64.1000        42
    64.1600        46
    64.2200        54
    64.2800        52
    64.3400        60
    64.4000        46
    64.4600        50
    64.5200        44
    64.5800        54
    64.6400        38
    64.7000        50
    64.7600        44
    64.8200        48
    64.8800        54
    64.9400        52
    65.0000        58
    65.0600        50
    65.1200        50
    65.1800        54
    65.2400        56
    65.3000        50
    65.3600        56
    65.4200        40
    65.4800        52
    65.5400        50
    65.6000        58
    65.6600        52
    65.7200        48
    65.7800        60
    65.8400        46
    65.9000        50
    65.9600        54
    66.0200        48
    66.0800        52
    66.1400        66
    66.2000       108
    66.2600       100
    66.3200       224
    66.3800       686
    66.4400       520
    66.5000       310
    66.5600       430
    66.6200       232
    66.6800        96
    66.7400        62
    66.8000        62
    66.8600        44
    66.9200        38
    66.9800        60
    67.0400        56
    67.1000        60
    67.1600        52
    67.2200        56
    67.2800        42
    67.3400        54
    67.4000        52
    67.4600        60
    67.5200        34
    67.5800        38
    67.6400        40
    67.7000        58
    67.7600        46
    67.8200        50
    67.8800        50
    67.9400        54
    68.0000        60
    68.0600        58
    68.1200        44
    68.1800        46
    68.2400        26
    68.3000        62
    68.3600        52
    68.4200        50
    68.4800        44
    68.5400        40
    68.6000        46
    68.6600        48
    68.7200        44
    68.7800        38
    68.8400        52
    68.9000        42
    68.9600        42
    69.0200        44
    69.0800        44
    69.1400        52
    69.2000        46
    69.2600        50
    69.3200        50
    69.3800        46
    69.4400        56
    69.5000        40
    69.5600        52
    69.6200        60
    69.6800        60
    69.7400       132
    69.8000       132
    69.8600        88
    69.9200       122
    69.9800        92
    70.0400        44
    70.1000        52
    70.1600        46
    70.2200        54
    70.2800        48
    70.3400        52
    70.4000        48
    70.4600        60
    70.5200        56
    70.5800        44
    70.6400        54
    70.7000        42
    70.7600        36
    70.8200        50
    70.8800        44
    70.9400        58
    71.0000        62
    71.0600        38
    71.1200        54
    71.1800        54
    71.2400        54
    71.3000        62
    71.3600        60
    71.4200        50
    71.4800        46
    71.5400        48
    71.6000        50
    71.6600        48
    71.7200        64
    71.7800        46
    71.8400        46
    71.9000        40
    71.9600        50
    72.0200        62
    72.0800        50
    72.1400        38
    72.2000        52
    72.2600        58
    72.3200        42
    72.3800        50
    72.4400        48
    72.5000        48
    72.5600        48
    72.6200        40
    72.6800        68
    72.7400        66
    72.8000        48
    72.8600        64
    72.9200        70
    72.9800       114
    73.0400       246
    73.1000       138
    73.1600       100
    73.2200       188
    73.2800       108
    73.3400        62
    73.4000        40
    73.4600        40
    73.5200        44
    73.5800        52
    73.6400        52
    73.7000        48
    73.7600        36
    73.8200        44
    73.8800        54
    73.9400        56
    74.0000        46
    74.0600        42
    74.1200        46
    74.1800        38
    74.2400        48
    74.3000        40
    74.3600        66
    74.4200        38
    74.4800        40
    74.5400        34
    74.6000        42
    74.6600        54
    74.7200        44
    74.7800        54
    74.8400        42
    74.9000        40
    74.9600        46
    75.0200        50
    75.0800        34
    75.1400        54
    75.2000        48
    75.2600        50
    75.3200        40
    75.3800        40
    75.4400        46
    75.5000        46
    75.5600        42
    75.6200        32
    75.6800        46
    75.7400        48
    75.8000        58
    75.8600        38
    75.9200        56
    75.9800        58
    76.0400        68
    76.1000        58
    76.1600        58
    76.2200       110
    76.2800       236
    76.3400       166
    76.4000        94
    76.4600       132
    76.5200       110
    76.5800        66
    76.6400        52
    76.7000        58
    76.7600        54
    76.8200        54
    76.8800        46
    76.9400        38
    77.0000        38
    77.0600        44
    77.1200        48
    77.1800        54
    77.2400        42
    77.3000        50
    77.3600        48
    77.4200        54
    77.4800        46
    77.5400        50
    77.6000        48
    77.6600        46
    77.7200        52
    77.7800        46
    77.8400        52
    77.9000        38
    77.9600        44
    78.0200        48
    78.0800        44
    78.1400        48
    78.2000        46
    78.2600        44
    78.3200        48
    78.3800        42
    78.4400        42
    78.5000        40
    78.5600        46
    78.6200        62
    78.6800        40
    78.7400        50
    78.8000        54
    78.8600        32
    78.9200        44
    78.9800        50
    79.0400        40
    79.1000        42
    79.1600        48
    79.2200        46
    79.2800        44
    79.3400        42
    79.4000        54
    79.4600        52
    79.5200        42
    79.5800        44
    79.6400        50
    79.7000        34
    79.7600        54
    79.8200        40
    79.8800        38
    79.9400        40
    80.0000        48